"Directivity Index"			
"Sound Power DI"		"Early Reflections DI"	
"Frequency [Hz]"	"[dB] Directivity Index "	"Frequency [Hz]"	"[dB] Directivity Index "
20.5078	2.45708	20.5078	0.940427
21.2402	3.961	21.2402	1.58407
21.9727	3.47168	21.9727	1.87478
22.7051	3.42173	22.7051	1.56643
23.4375	1.55127	23.4375	1.26592
24.1699	3.95252	24.1699	1.59727
25.6348	-0.484962	25.6348	1.15524
26.3672	2.8027	26.3672	1.72197
27.0996	-0.298239	27.0996	0.943726
27.832	-1.57461	27.832	0.754314
29.2969	0.382126	29.2969	1.08145
30.0293	-0.493992	30.0293	0.979746
31.4941	-0.248731	31.4941	0.757488
32.2266	-0.231105	32.2266	0.780516
33.6914	-0.259595	33.6914	0.858169
34.4238	-1.12191	34.4238	0.552826
35.8887	-0.994322	35.8887	0.409577
37.3535	-0.880292	37.3535	0.460013
38.8184	-1.4768	38.8184	0.203668
39.5508	-1.54827	39.5508	0.123077
41.0156	-1.39776	41.0156	0.0834776
42.4805	-1.35098	42.4805	0.0517768
43.9453	-1.12878	43.9453	0.112769
45.4102	-1.23985	45.4102	0.0440951
47.6074	-1.15159	47.6074	0.0105407
49.0723	-1.11454	49.0723	0.00397024
50.5371	-1.19639	50.5371	-0.0570359
52.7344	-1.10232	52.7344	-0.0725248
54.1992	-1.06249	54.1992	-0.0801298
56.3965	-1.01658	56.3965	-0.0959386
58.5938	-1.00275	58.5938	-0.128182
60.0586	-0.904281	60.0586	-0.109664
62.2559	-0.834999	62.2559	-0.101757
64.4531	-0.799989	64.4531	-0.112665
66.6504	-0.743996	66.6504	-0.112164
69.5801	-0.694541	69.5801	-0.118408
71.7773	-0.67968	71.7773	-0.132353
73.9746	-0.608281	73.9746	-0.12054
76.9043	-0.570274	76.9043	-0.124574
79.834	-0.496871	79.834	-0.114276
82.7637	-0.469021	82.7637	-0.115953
85.6934	-0.456749	85.6934	-0.124674
88.623	-0.458474	88.623	-0.136876
91.5527	-0.483943	91.5527	-0.160372
94.4824	-0.453853	94.4824	-0.162173
98.1445	-0.351121	98.1445	-0.132129
101.807	-0.36285	101.807	-0.148652
105.469	-0.349959	105.469	-0.151992
109.131	-0.347797	109.131	-0.161522
112.793	-0.326384	112.793	-0.160602
116.455	-0.309588	116.455	-0.160816
120.85	-0.28878	120.85	-0.156535
125.244	-0.284824	125.244	-0.158387
129.639	-0.211266	129.639	-0.136878
134.033	-0.22224	134.033	-0.145232
138.428	-0.328713	138.428	-0.185557
143.555	-0.26899	143.555	-0.162473
148.682	-0.140704	148.682	-0.113631
153.809	-0.0998438	153.809	-0.102619
159.668	-0.0684413	159.668	-0.0889043
164.795	0.00586495	164.795	-0.0657382
170.654	-0.0121731	170.654	-0.0729012
176.514	-0.0461276	176.514	-0.0818662
183.105	0.0169888	183.105	-0.0496351
189.697	0.0418691	189.697	-0.0420609
196.289	0.100223	196.289	-0.0142284
202.881	0.176241	202.881	0.0257223
210.205	0.25453	210.205	0.0635681
217.529	0.284759	217.529	0.068711
225.586	0.382111	225.586	0.114021
232.91	0.487352	232.91	0.152565
241.699	0.482058	241.699	0.15713
249.756	0.696592	249.756	0.263644
258.545	0.673714	258.545	0.241074
268.066	0.728842	268.066	0.255095
277.588	0.720327	277.588	0.297861
287.109	0.92276	287.109	0.372393
297.363	1.01943	297.363	0.398945
307.617	0.911187	307.617	0.33466
318.604	1.1488	318.604	0.457875
329.59	1.20403	329.59	0.449111
341.309	1.14228	341.309	0.463819
353.76	1.46916	353.76	0.561971
366.211	1.47734	366.211	0.559236
378.662	1.52411	378.662	0.573471
392.578	1.45348	392.578	0.499363
405.762	1.56235	405.762	0.59098
420.41	1.69825	420.41	0.632242
435.059	1.61698	435.059	0.562759
450.439	1.7893	450.439	0.6102
466.553	1.43922	466.553	0.583319
482.666	2.11796	482.666	1.21924
500.244	2.81494	500.244	1.49148
517.822	2.63489	517.822	1.34102
536.133	3.23065	536.133	1.50529
554.443	2.97587	554.443	1.22504
574.219	3.01869	574.219	1.23018
594.727	3.10252	594.727	1.14274
615.234	2.98372	615.234	0.979278
637.207	2.93402	637.207	0.899024
659.912	2.9328	659.912	0.911643
683.35	3.1281	683.35	0.968364
706.787	3.02947	706.787	0.887415
731.689	3.18596	731.689	1.00741
758.057	3.00921	758.057	0.846983
784.424	2.92393	784.424	0.815783
812.256	2.05811	812.256	0.240891
840.82	2.15057	840.82	0.530889
870.85	1.3943	870.85	0.0343988
901.611	-0.570814	901.611	-1.28584
933.105	0.761638	933.105	-0.178315
966.064	2.71805	966.064	1.4107
999.756	3.71821	999.756	2.22058
1,034.91	3.98708	1,034.91	2.59311
1,071.53	3.69008	1,071.53	2.37923
1,109.62	3.86744	1,109.62	2.2935
1,148.44	3.74351	1,148.44	2.11893
1,189.45	4.09363	1,189.45	1.94985
1,231.2	4.86826	1,231.2	2.11557
1,274.41	5.0937	1,274.41	2.21948
1,319.82	5.25657	1,319.82	2.26477
1,365.97	5.4347	1,365.97	2.35944
1,414.31	5.65408	1,414.31	2.36169
1,464.11	6.0268	1,464.11	2.51655
1,515.38	6.36239	1,515.38	2.72471
1,568.85	6.62155	1,568.85	2.89586
1,624.51	6.86707	1,624.51	3.05147
1,681.64	7.15539	1,681.64	3.22651
1,740.97	7.44982	1,740.97	3.48922
1,802.49	7.69185	1,802.49	3.59334
1,866.21	7.47811	1,866.21	3.74219
1,932.13	7.25988	1,932.13	3.81125
2,000.24	7.48633	2,000.24	3.76919
2,070.56	7.53763	2,070.56	3.66765
2,143.8	7.09929	2,143.8	3.59323
2,219.24	6.69843	2,219.24	3.42022
2,297.61	6.96175	2,297.61	3.32436
2,378.17	7.0037	2,378.17	3.37582
2,462.4	6.80536	2,462.4	3.41163
2,548.83	6.53299	2,548.83	3.12879
2,638.92	6.4538	2,638.92	3.07061
2,731.93	6.05856	2,731.93	2.82641
2,828.61	6.14587	2,828.61	2.79191
2,928.22	5.76823	2,928.22	2.41539
3,031.49	5.27939	3,031.49	2.05371
3,138.43	5.19155	3,138.43	1.93094
3,249.02	4.97028	3,249.02	1.86721
3,363.28	4.50835	3,363.28	1.70348
3,481.93	4.59555	3,481.93	1.80227
3,604.98	4.86219	3,604.98	1.85421
3,732.42	5.06849	3,732.42	1.80126
3,863.53	5.71075	3,863.53	2.26568
3,999.76	6.53259	3,999.76	2.74049
4,141.11	6.54082	4,141.11	2.87376
4,286.87	7.23218	4,286.87	3.12733
4,438.48	7.66648	4,438.48	3.45304
4,594.48	8.49527	4,594.48	3.87945
4,757.08	8.91894	4,757.08	4.07841
4,924.8	8.80735	4,924.8	3.99991
5,098.39	9.0142	5,098.39	4.08071
5,277.83	8.78197	5,277.83	4.06228
5,463.87	8.7604	5,463.87	3.99252
5,656.49	8.5403	5,656.49	3.87175
5,856.45	8.37274	5,856.45	3.82336
6,062.99	8.36788	6,062.99	3.95488
6,276.86	8.78494	6,276.86	4.06276
6,498.05	8.97999	6,498.05	4.07163
6,727.29	9.34486	6,727.29	4.27282
6,964.6	9.50024	6,964.6	4.28238
7,209.96	9.56084	7,209.96	4.26659
7,464.11	9.52036	7,464.11	4.23094
7,727.78	9.2123	7,727.78	4.09847
8,000.24	9.23059	8,000.24	4.20653
8,282.23	9.71025	8,282.23	4.4471
8,574.46	9.9243	8,574.46	4.47934
8,876.22	9.81835	8,876.22	4.37898
9,189.7	9.52759	9,189.7	4.21603
9,513.43	9.14887	9,513.43	4.04169
9,848.88	9.02253	9,848.88	3.99426
10,196.8	9.39224	10,196.8	4.22434
10,556.4	9.77365	10,556.4	4.37699
10,928.5	9.97261	10,928.5	4.39331
11,313.7	10.087	11,313.7	4.50838
11,712.9	10.0694	11,712.9	4.73457
12,126	10.3923	12,126	4.8615
12,553.7	10.7503	12,553.7	4.82115
12,996.1	10.6221	12,996.1	4.71719
13,454.6	10.1461	13,454.6	4.56581
13,928.5	9.77701	13,928.5	4.36337
14,419.9	9.75454	14,419.9	4.22689
14,928.2	10.6598	14,928.2	4.68444
15,454.8	11.8193	15,454.8	5.35431
15,999.8	12.6607	15,999.8	5.8889
16,564.5	12.9647	16,564.5	5.99345
17,148.2	12.8826	17,148.2	5.84663
17,753.2	12.2013	17,753.2	5.61415
18,379.4	11.1212	18,379.4	5.23832
19,027.6	9.96111	19,027.6	4.5204
19,698.5	9.15088	19,698.5	3.85721
19,999.5	8.77656	19,999.5	3.60863
