"Directivity Index"			
"Sound Power DI"		"Early Reflections DI"	
"Frequency [Hz]"	"[dB] Directivity Index "	"Frequency [Hz]"	"[dB] Directivity Index "
20.5078	0.190927	20.5078	0.000844644
23.4375	0.298779	23.4375	0.00323474
26.3672	0.25409	26.3672	-0.0263174
29.2969	0.268748	29.2969	-0.0552231
32.2266	0.217031	32.2266	-0.110246
35.1563	0.21769	35.1563	-0.182224
38.0859	0.119718	38.0859	-0.307427
41.0156	-0.022892	41.0156	-0.551226
43.9453	-0.142782	43.9453	-0.659943
46.875	-0.0346822	46.875	-0.508734
49.8047	0.0891233	49.8047	-0.264955
52.7344	0.187186	52.7344	-0.102819
55.6641	0.221368	55.6641	-0.011385
58.5938	0.306118	58.5938	0.0688297
61.5234	0.362239	61.5234	0.119411
64.4531	0.372419	64.4531	0.142191
67.3828	0.437384	67.3828	0.178338
70.3125	0.380334	70.3125	0.165335
73.2422	0.359787	73.2422	0.167606
76.1719	0.381186	76.1719	0.178594
79.1016	0.390284	79.1016	0.186463
82.0313	0.407295	82.0313	0.192477
84.9609	0.45963	84.9609	0.21693
87.8906	0.437028	87.8906	0.214314
90.8203	0.372016	90.8203	0.192246
93.75	0.403751	93.75	0.202714
96.6797	0.573772	96.6797	0.262111
102.539	0.451485	102.539	0.221919
105.469	0.512633	105.469	0.247357
108.398	0.557659	108.398	0.268511
111.328	0.550655	111.328	0.266915
117.188	0.578342	117.188	0.290514
120.117	0.621184	120.117	0.307149
125.977	0.655727	125.977	0.311906
128.906	0.713241	128.906	0.325594
134.766	0.588145	134.766	0.293883
137.695	0.565182	137.695	0.298033
143.555	0.652288	143.555	0.341056
149.414	0.767566	149.414	0.382598
155.273	0.892235	155.273	0.433832
158.203	0.952026	158.203	0.458937
164.063	0.965557	164.063	0.463528
169.922	0.865927	169.922	0.426461
175.781	0.866631	175.781	0.457025
181.641	1.02671	181.641	0.513172
190.43	1.15862	190.43	0.578636
196.289	1.154	196.289	0.589048
202.148	1.26211	202.148	0.637448
210.938	1.34795	210.938	0.664025
216.797	1.33323	216.797	0.67714
225.586	1.59221	225.586	0.807364
234.375	1.77438	234.375	0.867869
240.234	1.75526	240.234	0.861403
249.023	2.11798	249.023	1.00161
257.813	1.97971	257.813	0.95524
266.602	2.17124	266.602	1.00701
278.32	2.08151	278.32	0.997395
287.109	2.22291	287.109	1.06085
295.898	2.68113	295.898	1.18953
307.617	2.26435	307.617	0.956457
319.336	2.35843	319.336	1.03634
331.055	2.48325	331.055	1.0605
342.773	2.49132	342.773	1.13271
354.492	2.96683	354.492	1.25195
366.211	3.01709	366.211	1.2584
377.93	2.91612	377.93	1.20995
392.578	2.79564	392.578	1.08708
407.227	2.94018	407.227	1.20484
421.875	2.93719	421.875	1.19764
436.523	3.26974	436.523	1.56226
451.172	3.73255	451.172	1.58869
465.82	3.40862	465.82	1.56542
483.398	4.02652	483.398	1.79866
500.977	3.42181	500.977	1.48494
518.555	3.15693	518.555	1.35406
536.133	3.52787	536.133	1.51128
553.711	3.27714	553.711	1.41433
574.219	2.48356	574.219	1.28922
594.727	3.23547	594.727	1.55618
615.234	3.77924	615.234	1.77684
638.672	3.60394	638.672	1.70768
659.18	3.47901	659.18	1.74033
682.617	4.09853	682.617	2.01003
706.055	4.00034	706.055	1.90208
732.422	3.78068	732.422	1.83101
758.789	4.47744	758.789	2.09803
785.156	3.88582	785.156	1.72427
811.523	3.34219	811.523	1.47657
840.82	2.7221	840.82	1.57419
870.117	4.16919	870.117	2.06083
902.344	3.93933	902.344	1.82702
931.641	4.36241	931.641	1.93304
966.797	3.78512	966.797	1.5057
999.023	3.62126	999.023	1.62153
1,034.18	4.35006	1,034.18	1.70497
1,072.27	4.0278	1,072.27	1.37978
1,110.35	3.45229	1,110.35	0.859632
1,148.44	3.72154	1,148.44	0.934154
1,189.45	4.12412	1,189.45	1.16984
1,230.47	4.23662	1,230.47	1.1686
1,274.41	3.82818	1,274.41	0.907397
1,318.36	4.06044	1,318.36	1.23403
1,365.23	4.58152	1,365.23	1.58535
1,415.04	4.58885	1,415.04	1.58918
1,464.84	4.9318	1,464.84	1.8142
1,514.65	5.16415	1,514.65	2.03615
1,570.31	5.43624	1,570.31	2.31474
1,623.05	5.53974	1,623.05	2.40814
1,681.64	5.55161	1,681.64	2.3891
1,740.23	5.78542	1,740.23	2.49913
1,801.76	6.13097	1,801.76	2.64193
1,866.21	5.59016	1,866.21	2.27359
1,930.66	5.32655	1,930.66	2.20103
2,000.98	5.60055	2,000.98	2.36462
2,071.29	6.1672	2,071.29	2.59945
2,144.53	5.96947	2,144.53	2.41882
2,217.77	5.3123	2,217.77	2.03921
2,296.88	5.77118	2,296.88	2.07938
2,378.91	5.9524	2,378.91	2.20918
2,460.94	5.57386	2,460.94	1.98287
2,548.83	5.72838	2,548.83	2.04275
2,639.65	5.91827	2,639.65	2.11349
2,733.4	6.28217	2,733.4	2.32004
2,827.15	6.41442	2,827.15	2.43478
2,926.76	6.27723	2,926.76	2.34843
3,032.23	6.15083	3,032.23	2.32712
3,137.7	6.19861	3,137.7	2.38958
3,249.02	6.1073	3,249.02	2.28605
3,363.28	5.73337	3,363.28	2.04088
3,483.4	5.83313	3,483.4	2.11693
3,606.45	5.99559	3,606.45	2.2544
3,732.42	5.88732	3,732.42	2.24901
3,864.26	6.18002	3,864.26	2.43856
3,999.02	6.47375	3,999.02	2.66693
4,139.65	6.79846	4,139.65	2.83447
4,286.13	7.25241	4,286.13	3.09261
4,438.48	7.11079	4,438.48	3.0635
4,593.75	6.7004	4,593.75	2.73903
4,757.81	6.32137	4,757.81	2.42414
4,924.8	6.4469	4,924.8	2.52714
5,097.66	6.48009	5,097.66	2.55966
5,279.3	6.16454	5,279.3	2.46639
5,463.87	6.52489	5,463.87	2.60299
5,657.23	6.28333	5,657.23	2.36022
5,856.45	6.29497	5,856.45	2.25517
6,061.52	6.48288	6,061.52	2.30084
6,275.39	6.33542	6,275.39	2.2826
6,498.05	6.42325	6,498.05	2.42388
6,726.56	7.06932	6,726.56	2.79079
6,963.87	6.91403	6,963.87	2.56146
7,209.96	6.57591	7,209.96	2.34908
7,464.84	6.49212	7,464.84	2.30279
7,728.52	6.33631	7,728.52	2.26622
8,000.98	6.28377	8,000.98	2.165
8,282.23	6.13147	8,282.23	2.20281
8,575.2	5.40919	8,575.2	1.84528
8,876.95	5.01417	8,876.95	1.6134
9,190.43	5.39932	9,190.43	1.77118
9,512.7	6.11796	9,512.7	2.28391
9,849.61	6.55941	9,849.61	2.54342
10,195.3	7.48385	10,195.3	2.99895
10,555.7	8.7746	10,555.7	3.80247
10,927.7	9.05747	10,927.7	4.06688
11,314.5	9.19169	11,314.5	4.2008
11,712.9	9.1294	11,712.9	4.18852
12,126	9.21293	12,126	4.19181
12,553.7	9.38431	12,553.7	4.21737
12,996.1	9.79594	12,996.1	4.47477
13,453.1	10.2085	13,453.1	4.81117
13,927.7	10.6552	13,927.7	5.13022
14,419.9	11.106	14,419.9	5.36821
14,929.7	11.4221	14,929.7	5.43554
15,454.1	11.7223	15,454.1	5.55604
15,999	11.7127	15,999	5.61738
16,564.5	11.225	16,564.5	5.36272
17,147.5	11.405	17,147.5	5.40119
17,753.9	11.7449	17,753.9	5.59239
18,377.9	11.6043	18,377.9	5.53133
19,028.3	11.3891	19,028.3	5.28936
19,699.2	11.0466	19,699.2	4.93762
19,998	10.8939	19,998	4.88436
