"Directivity Index"			
"Sound Power DI"		"Early Reflections DI"	
"Frequency [Hz]"	"[dB] Directivity Index "	"Frequency [Hz]"	"[dB] Directivity Index "
20.5078	-3.51453	20.5078	-1.43476
21.2402	-2.66151	21.2402	-0.996505
21.9727	-2.00322	21.9727	-0.684967
22.7051	-1.3758	22.7051	-0.403746
23.4375	-0.395641	23.4375	0.00303044
24.1699	0.863974	24.1699	0.440979
25.6348	-3.3034	25.6348	-0.264587
26.3672	-10.3311	26.3672	-5.84948
27.0996	-4.93985	27.0996	-2.12548
27.832	-3.51707	27.832	-1.34016
29.2969	-1.91377	29.2969	-0.572838
30.0293	-1.59511	30.0293	-0.424063
31.4941	-1.38053	31.4941	-0.349477
32.2266	-1.17984	32.2266	-0.284574
33.6914	-0.847957	33.6914	-0.174877
34.4238	-0.684031	34.4238	-0.119296
35.8887	-0.533224	35.8887	-0.0730963
37.3535	-0.453123	37.3535	-0.0550202
38.8184	-0.418549	38.8184	-0.055022
39.5508	-0.388692	39.5508	-0.0522674
41.0156	-0.357509	41.0156	-0.05511
42.4805	-0.329152	42.4805	-0.054044
43.9453	-0.298872	43.9453	-0.0518152
45.4102	-0.257677	45.4102	-0.0434815
47.6074	-0.24112	47.6074	-0.0485447
49.0723	-0.240183	49.0723	-0.0541098
50.5371	-0.229526	50.5371	-0.0553789
52.7344	-0.223559	52.7344	-0.0606812
54.1992	-0.220079	54.1992	-0.0633166
56.3965	-0.224269	56.3965	-0.0700753
58.5938	-0.205597	58.5938	-0.0680487
60.0586	-0.200871	60.0586	-0.0694953
62.2559	-0.20515	62.2559	-0.0744779
64.4531	-0.202592	64.4531	-0.0764774
66.6504	-0.172817	66.6504	-0.0683217
69.5801	-0.167772	69.5801	-0.0684308
71.7773	-0.159525	71.7773	-0.0669262
73.9746	-0.142604	73.9746	-0.0621755
76.9043	-0.125345	76.9043	-0.0571375
79.834	-0.149258	79.834	-0.0660327
82.7637	-0.0180373	82.7637	-0.0194145
85.6934	0.0731931	85.6934	0.0119906
88.623	-0.110473	88.623	-0.0555818
91.5527	-0.251695	91.5527	-0.108106
94.4824	-0.0186064	94.4824	-0.0156109
98.1445	0.0690432	98.1445	0.0143447
101.807	0.057313	101.807	0.0115975
105.469	0.0610576	105.469	0.0169836
109.131	0.0863484	109.131	0.0249013
112.793	0.117894	112.793	0.037407
116.455	0.0974777	116.455	0.0327762
120.85	0.120833	120.85	0.0554587
125.244	0.265059	125.244	0.109343
129.639	0.286814	129.639	0.103547
134.033	0.0523459	134.033	0.032764
138.428	0.139138	138.428	0.0807128
143.555	0.308843	143.555	0.14496
148.682	0.304068	148.682	0.149303
153.809	0.417839	153.809	0.194598
159.668	0.519791	159.668	0.22958
164.795	0.500488	164.795	0.204614
170.654	0.24014	170.654	0.100505
176.514	0.337049	176.514	0.175322
183.105	0.47416	183.105	0.255891
189.697	0.432298	189.697	0.264511
196.289	0.722257	196.289	0.373536
202.881	0.845379	202.881	0.419911
210.205	0.979914	210.205	0.467831
217.529	0.983837	217.529	0.475173
225.586	1.13643	225.586	0.555719
232.91	1.29909	232.91	0.587746
241.699	1.28266	241.699	0.591237
249.756	1.62034	249.756	0.724852
258.545	1.40176	258.545	0.620691
268.066	1.49461	268.066	0.676475
277.588	1.64469	277.588	0.798138
287.109	1.93259	287.109	0.901319
297.363	2.1873	297.363	0.871167
307.617	1.80448	307.617	0.747513
318.604	2.03181	318.604	0.851246
329.59	2.16406	329.59	0.90981
341.309	2.10219	341.309	0.902588
353.76	2.46385	353.76	0.954191
366.211	2.59504	366.211	0.977103
378.662	2.4642	378.662	0.928033
392.578	2.25816	392.578	0.791162
405.762	2.50291	405.762	0.967813
420.41	2.50978	420.41	0.855891
435.059	2.60646	435.059	0.943107
450.439	2.77018	450.439	0.896814
466.553	2.63763	466.553	0.860609
482.666	2.52838	482.666	0.721075
500.244	2.42535	500.244	0.7468
517.822	2.56777	517.822	0.918741
536.133	3.63166	536.133	1.47157
554.443	3.42632	554.443	1.1791
574.219	3.92619	574.219	1.51372
594.727	3.93876	594.727	1.56056
615.234	3.88608	615.234	1.39544
637.207	3.97868	637.207	1.4822
659.912	3.99725	659.912	1.49679
683.35	4.59638	683.35	1.89372
706.787	4.61874	706.787	1.86595
731.689	4.71149	731.689	1.9407
758.057	4.71039	758.057	1.94076
784.424	4.79811	784.424	2.04352
812.256	4.78614	812.256	2.11588
840.82	4.99031	840.82	2.15314
870.85	5.1195	870.85	2.32197
901.611	5.06525	901.611	2.1484
933.105	5.35928	933.105	2.28864
966.064	5.75884	966.064	2.47676
999.756	5.75587	999.756	2.4513
1,034.91	5.86783	1,034.91	2.39204
1,071.53	5.92124	1,071.53	2.45313
1,109.62	6.08914	1,109.62	2.57513
1,148.44	6.37605	1,148.44	2.76714
1,189.45	6.55305	1,189.45	2.73027
1,231.2	6.74829	1,231.2	2.77127
1,274.41	6.9032	1,274.41	2.8361
1,319.82	7.0712	1,319.82	2.89475
1,365.97	7.15382	1,365.97	2.95719
1,414.31	7.13914	1,414.31	2.95179
1,464.11	6.95434	1,464.11	2.82434
1,515.38	7.25406	1,515.38	2.97592
1,568.85	7.5375	1,568.85	3.22007
1,624.51	7.4054	1,624.51	3.15988
1,681.64	7.06474	1,681.64	3.02362
1,740.97	7.16012	1,740.97	3.0548
1,802.49	7.30632	1,802.49	3.06358
1,866.21	7.05259	1,866.21	2.89207
1,932.13	6.95998	1,932.13	2.94867
2,000.24	6.7891	2,000.24	2.77893
2,070.56	6.56145	2,070.56	2.63083
2,143.8	6.25925	2,143.8	2.51297
2,219.24	5.85563	2,219.24	2.28972
2,297.61	6.0178	2,297.61	2.37552
2,378.17	5.96268	2,378.17	2.39345
2,462.4	5.50878	2,462.4	2.00363
2,548.83	5.0934	2,548.83	1.79685
2,638.92	5.21727	2,638.92	1.87476
2,731.93	5.21438	2,731.93	1.89345
2,828.61	4.89674	2,828.61	1.68953
2,928.22	4.60293	2,928.22	1.46408
3,031.49	4.67966	3,031.49	1.65172
3,138.43	4.4058	3,138.43	1.58776
3,249.02	4.13166	3,249.02	1.48652
3,363.28	3.85887	3,363.28	1.22007
3,481.93	3.82851	3,481.93	0.919647
3,604.98	3.85719	3,604.98	0.821019
3,732.42	3.87775	3,732.42	0.780182
3,863.53	4.14184	3,863.53	0.858817
3,999.76	4.16017	3,999.76	0.936398
4,141.11	3.79701	4,141.11	0.635938
4,286.87	4.17068	4,286.87	0.894696
4,438.48	4.2262	4,438.48	0.930741
4,594.48	4.54459	4,594.48	1.26279
4,757.08	4.52908	4,757.08	1.21096
4,924.8	4.56027	4,924.8	1.3274
5,098.39	4.58427	5,098.39	1.28971
5,277.83	4.58491	5,277.83	1.20604
5,463.87	4.80612	5,463.87	1.44746
5,656.49	4.42658	5,656.49	1.26421
5,856.45	4.73883	5,856.45	1.43759
6,062.99	5.31017	6,062.99	1.95727
6,276.86	5.91043	6,276.86	2.26889
6,498.05	6.15117	6,498.05	2.3755
6,727.29	6.49917	6,727.29	2.5406
6,964.6	6.38341	6,964.6	2.38141
7,209.96	6.29795	7,209.96	2.28377
7,464.11	6.26658	7,464.11	2.33154
7,727.78	6.08833	7,727.78	2.30188
8,000.24	6.52471	8,000.24	2.59817
8,282.23	6.93907	8,282.23	2.7611
8,574.46	7.24431	8,574.46	2.89281
8,876.22	7.15562	8,876.22	2.88005
9,189.7	7.06217	9,189.7	2.80463
9,513.43	7.22663	9,513.43	2.98662
9,848.88	7.40576	9,848.88	3.19348
10,196.8	7.61983	10,196.8	3.44138
10,556.4	7.74583	10,556.4	3.48528
10,928.5	7.71929	10,928.5	3.3515
11,313.7	7.63689	11,313.7	3.22
11,712.9	7.64661	11,712.9	3.17939
12,126	7.82481	12,126	3.24091
12,553.7	8.07867	12,553.7	3.2918
12,996.1	8.39727	12,996.1	3.43319
13,454.6	8.93528	13,454.6	3.80402
13,928.5	9.40234	13,928.5	4.09018
14,419.9	9.89721	14,419.9	4.32405
14,928.2	10.2432	14,928.2	4.49082
15,454.8	10.5331	15,454.8	4.66228
15,999.8	10.6782	15,999.8	4.76714
16,564.5	10.8047	16,564.5	4.82662
17,148.2	11.262	17,148.2	5.12271
17,753.2	11.638	17,753.2	5.31719
18,379.4	11.7822	18,379.4	5.42957
19,027.6	12.2189	19,027.6	5.58967
19,698.5	12.5866	19,698.5	5.66882
19,999.5	12.5628	19,999.5	5.66092
